date	time	group	subject	build	blocknum	trialnum	blockcode	trialcode	pretrialpause	posttrialpause	trialduration	trialtimeout	response	correct	latency	stimulusnumber1	stimulusitem1	stimulusonset1
081220	15:24:45	1	1	5.0.14.0	1	1		   1	0	0	0	0	57	0	5347	1	practiceDataInquisit_tab.txt	9
081220	15:29:51	1	1	5.0.14.0	1	1		   1	0	0	0	0	57	0	2258	1	file	8
081220	15:49:14	1	1	5.0.14.0	1	1		   1	0	0	0	0	28	0	1631	1	practiceDataInquisit_tab.txt	9
081220	15:50:54	1	1	5.0.14.0	1	1		   1	0	0	0	0	57	0	1768	1	practiceDataInquisit_tab.txt	10
081220	15:53:23	1	1	5.0.14.0	1	1		   1	0	0	0	0	57	0	4986	1	text.practiceTrials	9
081220	15:54:40	1	1	5.0.14.0	1	1		   1	0	0	0	0	57	0	1637	2	item.practiceData	9
081220	15:54:40	1	1	5.0.14.0	1	1		   1	0	0	0	0	-57	0	117	1	text.practiceTrials	-7
081220	15:55:07	1	1	5.0.14.0	1	1		   1	0	0	0	0	57	0	2072	1	file	8
081220	15:55:07	1	1	5.0.14.0	1	1		   1	0	0	0	0	-57	0	164	2	item.practiceData	-7
081220	16:07:07	1	1	5.0.14.0	1	1		   1	0	0	0	0	57	0	2894	1	file	9
081220	16:07:07	1	1	5.0.14.0	1	1		   1	0	0	0	0	-57	0	126	2	item.practiceData	-7
081220	16:07:22	1	1	5.0.14.0	1	1		   1	0	0	0	0	57	0	3058	2	item.practiceData	25
081220	16:07:22	1	1	5.0.14.0	1	1		   1	0	0	0	0	-57	0	92	1	file	-5
081220	16:09:28	1	1	5.0.14.0	1	1		   1	0	0	0	0	57	0	3040	2	item.practiceData	9
081220	16:09:28	1	1	5.0.14.0	1	1		   1	0	0	0	0	-57	0	123	1	practiceTrial_index	-8
081220	16:09:46	1	1	5.0.14.0	1	1		   1	0	0	0	0	57	0	3352	1	practiceTrial_index	8
081220	16:09:46	1	1	5.0.14.0	1	1		   1	0	0	0	0	-57	0	105	2	item.practiceData	-7
081220	16:25:46	1	1	5.0.14.0	1	1		   1	0	0	0	0	57	0	4064	2	B	8
081220	16:25:46	1	1	5.0.14.0	1	1		   1	0	0	0	0	-57	0	59	1	A	-6
081220	16:25:46	1	1	5.0.14.0	1	1		   1	0	0	0	0	57	0	1233	3	C	-7
081220	16:27:01	1	1	5.0.14.0	1	1		   1	0	0	0	0	57	0	2387	1	A	9
081220	16:27:01	1	1	5.0.14.0	1	1		   1	0	0	0	0	-57	0	74	3	C	-6
081220	16:27:01	1	1	5.0.14.0	1	1		   1	0	0	0	0	57	0	1838	2	B	-7
081220	16:27:51	1	1	5.0.14.0	1	1		   1	0	0	0	0	205	0	5508	2	test2	25
081220	16:27:51	1	1	5.0.14.0	1	1		   1	0	0	0	0	-205	0	113	1	test1	-4
081220	16:27:51	1	1	5.0.14.0	1	1		   1	0	0	0	0	205	0	4412	3	test3	-6
081220	16:32:10	1	1	5.0.14.0	1	1		   1	0	0	0	0	57	0	2037	3	test3	9
081220	16:32:10	1	1	5.0.14.0	1	1		   1	0	0	0	0	-57	0	101	1	test1	-6
081220	16:32:10	1	1	5.0.14.0	1	1		   1	0	0	0	0	57	0	2849	2	test2	-8
081220	16:32:30	1	1	5.0.14.0	1	1		   1	0	0	0	0	57	0	1594	2	test2	9
081220	16:32:30	1	1	5.0.14.0	1	1		   1	0	0	0	0	-57	0	39	3	test3	-7
081220	16:32:30	1	1	5.0.14.0	1	1		   1	0	0	0	0	57	0	982	1	test1	-8
081220	16:42:16	1	1	5.0.14.0	1	1		   1	0	0	0	0	57	0	818	3	test3	10
081220	16:42:16	1	1	5.0.14.0	1	1		   1	0	0	0	0	-57	0	139	1	test1	-8
081220	16:42:16	1	1	5.0.14.0	1	1		   1	0	0	0	0	57	0	933	2	test2	-8
081220	16:44:32	1	1	5.0.14.0	1	1		   1	0	0	0	0	57	0	1042	2	test2	9
081220	16:44:32	1	1	5.0.14.0	1	1		   1	0	0	0	0	-57	0	79	3	test3	-7
081220	16:44:32	1	1	5.0.14.0	1	1		   1	0	0	0	0	57	0	4154	1	include.practicedata_index	-16
081220	16:45:07	1	1	5.0.14.0	1	1		   1	0	0	0	0	57	0	1287	0	include.practicedata_index	9
081220	16:45:07	1	1	5.0.14.0	1	1		   1	0	0	0	0	-57	0	170	0	include.practicedata_index	-6
081220	16:45:07	1	1	5.0.14.0	1	1		   1	0	0	0	0	57	0	802	0	include.practicedata_index	-7
081220	16:45:29	1	1	5.0.14.0	1	1		   1	0	0	0	0	57	0	1399	0	include.practicedata_index	9
081220	16:45:29	1	1	5.0.14.0	1	1		   1	0	0	0	0	-57	0	68	0	include.practicedata_index	-8
081220	16:45:29	1	1	5.0.14.0	1	1		   1	0	0	0	0	57	0	1073	0	include.practicedata_index	-7
081220	16:47:58	1	1	5.0.14.0	1	1		   1	0	0	0	0	57	0	1847	0	include.practicedata_index	10
081220	16:47:58	1	1	5.0.14.0	1	1		   1	0	0	0	0	-57	0	57	0	include.practicedata_index	-7
081220	16:47:58	1	1	5.0.14.0	1	1		   1	0	0	0	0	57	0	846	0	include.practicedata_index	-7
081220	16:49:30	1	1	5.0.14.0	1	1		   1	0	0	0	0	57	0	1291	0	include.practicedata_index	9
081220	16:49:30	1	1	5.0.14.0	1	1		   1	0	0	0	0	-57	0	72	0	include.practicedata_index	-7
081220	16:49:30	1	1	5.0.14.0	1	1		   1	0	0	0	0	57	0	964	0	include.practicedata_index	-6
081220	16:50:55	1	1	5.0.14.0	1	1		   1	0	0	0	0	57	0	1174	3	test3	25
081220	16:50:55	1	1	5.0.14.0	1	1		   1	0	0	0	0	-57	0	91	2	test2	-8
081220	16:50:55	1	1	5.0.14.0	1	1		   1	0	0	0	0	57	0	1310	1	include.practicedata_index	-8
081220	16:51:50	1	1	5.0.14.0	1	1		   1	0	0	0	0	57	0	725	3	test3	25
081220	16:51:50	1	1	5.0.14.0	1	1		   1	0	0	0	0	-57	0	164	1	include.practicedata_index	-7
081220	16:51:50	1	1	5.0.14.0	1	1		   1	0	0	0	0	57	0	1037	2	test2	-7
081220	16:52:15	1	1	5.0.14.0	1	1		   1	0	0	0	0	57	0	1463	1	include.practicedata_index	9
081220	16:52:15	1	1	5.0.14.0	1	1		   1	0	0	0	0	-57	0	49	2	test2	-7
081220	16:52:15	1	1	5.0.14.0	1	1		   1	0	0	0	0	57	0	894	3	test3	-8
081220	16:52:22	1	1	5.0.14.0	1	1		   1	0	0	0	0	57	0	1215	1	include.practicedata_index	9
081220	16:52:22	1	1	5.0.14.0	1	1		   1	0	0	0	0	-57	0	134	2	test2	-7
081220	16:52:22	1	1	5.0.14.0	1	1		   1	0	0	0	0	57	0	664	3	test3	-6
081220	16:52:27	1	1	5.0.14.0	1	1		   1	0	0	0	0	57	0	661	1	include.practicedata_index	8
081220	16:52:27	1	1	5.0.14.0	1	1		   1	0	0	0	0	-57	0	120	2	test2	-8
081220	16:52:27	1	1	5.0.14.0	1	1		   1	0	0	0	0	57	0	778	3	test3	-8
081220	16:54:11	1	1	5.0.14.0	1	1		   1	0	0	0	0	57	0	644	1	include.practicedata_index	9
081220	16:54:11	1	1	5.0.14.0	1	1		   1	0	0	0	0	-57	0	103	2	test2	-7
081220	16:54:11	1	1	5.0.14.0	1	1		   1	0	0	0	0	57	0	539	3	test3	-8
081220	16:56:23	1	1	5.0.14.0	1	1		   1	0	0	0	0	57	0	1144	1	include.practicedata_index	24
081220	16:56:23	1	1	5.0.14.0	1	1		   1	0	0	0	0	-57	0	117	2	test2	-7
081220	16:56:23	1	1	5.0.14.0	1	1		   1	0	0	0	0	57	0	567	3	test3	-8
081220	16:56:51	1	1	5.0.14.0	1	1		   1	0	0	0	0	57	0	767	1	include.practicedata_index	9
081220	16:56:51	1	1	5.0.14.0	1	1		   1	0	0	0	0	-57	0	110	2	test2	-6
081220	16:56:51	1	1	5.0.14.0	1	1		   1	0	0	0	0	57	0	545	3	test3	-8
081220	17:09:19	1	1	5.0.14.0	1	1		   1	0	0	0	0	57	0	769	1	include.practicedata_index	9
081220	17:09:19	1	1	5.0.14.0	1	1		   1	0	0	0	0	-57	0	123	2	test2	-8
081220	17:09:19	1	1	5.0.14.0	1	1		   1	0	0	0	0	57	0	653	3	test3	-7
081220	17:17:28	1	1	5.0.14.0	1	1		   1	0	0	0	0	57	0	2501	1	go	25
081220	17:17:28	1	1	5.0.14.0	1	1		   1	0	0	0	0	-57	0	103	2	stop	-7
081220	17:17:28	1	1	5.0.14.0	1	1		   1	0	0	0	0	57	0	874	3	go	-7
081320	11:03:05	1	1	5.0.14.0	1	1		go	0	0	0	0	0	0	0	1	balloon.jpg	0
081320	11:04:46	1	1	5.0.14.0	1	1		go	0	0	0	0	0	0	0	1	balloon.jpg	12
081320	11:04:54	1	1	5.0.14.0	1	1		go	0	0	0	0	0	0	0	1	balloon.jpg	10
081320	11:05:04	1	1	5.0.14.0	1	1		go	0	0	0	0	0	0	0	1	balloon.jpg	20
081320	11:05:18	1	1	5.0.14.0	1	1		go	0	0	0	0	0	0	0	1	balloon.jpg	9
081320	11:07:01	1	1	5.0.14.0	1	1		go	0	0	0	0	0	0	0	1	balloon.jpg	91
081320	11:07:05	1	1	5.0.14.0	1	1		go	0	0	0	0	0	0	0	1	balloon.jpg	91
081320	11:07:41	1	1	5.0.14.0	1	1		go	0	0	0	0	0	0	0	1	poppedballoon.jpg	10
081320	17:57:13	1	1	5.0.14.0	1	1	practice	init	0	0	500	0	0	0	0	1	blank	18	1	Number of trials: 1	18
081320	17:57:13	1	1	5.0.14.0	1	3	practice	init	0	0	500	0	0	0	0	1	blank	-7	1	Number of trials: 1	-7
081320	17:57:13	1	1	5.0.14.0	1	5	practice	init	0	0	500	0	0	0	0	1	blank	-8	1	Number of trials: 1	-8
081720	16:12:56	1	1	5.0.14.0	1	2	practice	go	0	0	0	0	-44	0	464	1	bar_left	-2	1	blankbottomrectangle	-2	1	Number of trials: 1	-2
081720	16:12:56	1	1	5.0.14.0	1	6	practice	go	0	0	0	0	-44	0	316	1	bar_left	-3	1	blankbottomrectangle	-3	1	Number of trials: 3	-3
081720	16:13:12	1	1	5.0.14.0	1	2	practice	go	0	0	0	0	-44	0	665	1	bar_left	-3	1	blankbottomrectangle	-3	1	Number of trials: 1	-3
081720	16:13:12	1	1	5.0.14.0	1	6	practice	go	0	0	0	0	-44	0	31	1	bar_left	-3	1	blankbottomrectangle	-3	1	Number of trials: 3	-3
081720	16:16:37	1	1	5.0.14.0	1	2	practice	go	0	0	0	0	-44	0	813	1	bar_left	-3	1	blankbottomrectangle	-3	1	Number of trials: 1	-3
081720	16:16:37	1	1	5.0.14.0	1	6	practice	go	0	0	0	0	-44	0	397	1	bar_left	-2	1	blankbottomrectangle	-2	1	Number of trials: 3	-2
081720	16:25:03	1	2	5.0.14.0	1	2	practice	go	0	0	0	0	-44	0	733	1	bar_left	-2	1	blankbottomrectangle	-2	1	Number of trials: 1	-2
081720	16:25:03	1	2	5.0.14.0	1	6	practice	go	0	0	0	0	-44	0	197	1	bar_left	-3	1	blankbottomrectangle	-3	1	Number of trials: 3	-3
081720	16:32:56	1	1	5.0.14.0	1	2	practice	go	0	0	0	0	-44	0	4666	1	bar_left	-3	1	bar_right	-3	1	blankbottomrectangle	-3	1	Number of trials: 1	-3
081720	16:32:56	1	1	5.0.14.0	1	6	practice	go	0	0	0	0	-44	0	531	1	bar_left	-4	1	bar_right	-4	1	blankbottomrectangle	-4	1	Number of trials: 3	-4
081720	16:33:33	1	1	5.0.14.0	1	2	practice	go	0	0	0	0	-44	0	991	1	bar_left	-1	1	bar_right	-1	1	blankbottomrectangle	-1	1	Number of trials: 1	-1
081720	16:33:33	1	1	5.0.14.0	1	6	practice	go	0	0	0	0	-44	0	431	1	bar_left	-3	1	bar_right	-3	1	blankbottomrectangle	-3	1	Number of trials: 3	-3
081720	16:34:24	1	1	5.0.14.0	1	2	practice	go	0	0	0	0	-44	0	981	1	bar_left	-2	1	bar_right	-2	1	blankbottomrectangle	-2	1	Number of trials: 1	-2
081720	16:34:24	1	1	5.0.14.0	1	6	practice	go	0	0	0	0	-44	0	114	1	bar_left	-1	1	bar_right	-1	1	blankbottomrectangle	-1	1	Number of trials: 3	-1
081720	16:35:04	1	1	5.0.14.0	1	2	practice	go	0	0	0	0	-44	0	231	1	bar_left	-3	1	bar_right	-3	1	blankbottomrectangle	-3	1	Number of trials: 1	-3
081720	16:35:04	1	1	5.0.14.0	1	6	practice	go	0	0	0	0	-44	0	864	1	bar_left	0	1	bar_right	0	1	blankbottomrectangle	0	1	Number of trials: 3	0
081720	16:35:22	1	1	5.0.14.0	1	2	practice	go	0	0	0	0	-44	0	964	1	bar_left	0	1	bar_right	0	1	blankbottomrectangle	0	1	Number of trials: 1	0
081720	16:35:22	1	1	5.0.14.0	1	6	practice	go	0	0	0	0	-44	0	398	1	bar_left	0	1	bar_right	0	1	blankbottomrectangle	0	1	Number of trials: 3	0
081720	16:36:39	1	1	5.0.14.0	1	2	practice	go	0	0	0	0	-44	0	898	1	bar_left	-3	1	bar_right	-3	1	blankbottomrectangle	-3
081720	16:36:39	1	1	5.0.14.0	1	6	practice	go	0	0	0	0	-44	0	498	1	bar_left	-3	1	bar_right	-3	1	blankbottomrectangle	-3
081720	17:01:03	1	1	5.0.14.0	1	2	practice	go	476	0	0	0	-44	0	881	1	bar_left	-1	1	bar_right	-1	1	blankbottomrectangle	-1
081720	17:01:03	1	1	5.0.14.0	1	6	practice	go	476	0	0	0	-44	0	729	1	bar_left	-2	1	bar_right	-2	1	blankbottomrectangle	-2
081720	17:01:44	1	1	5.0.14.0	1	2	practice	go	822	0	0	0	-44	0	347	1	bar_left	-1	1	bar_right	-1	1	blankbottomrectangle	-1
081720	17:01:44	1	1	5.0.14.0	1	6	practice	go	822	0	0	0	-44	0	866	1	bar_left	0	1	bar_right	0	1	blankbottomrectangle	0
081720	17:05:54	1	1	5.0.14.0	1	2	practice	go	461	1500	0	0	-44	0	948	1	bar_left	-2	1	bar_right	-2	1	blankbottomrectangle	-2
081720	17:05:54	1	1	5.0.14.0	1	6	practice	go	461	1500	0	0	-44	0	467	1	bar_left	-3	1	bar_right	-3	1	blankbottomrectangle	-3
081720	17:06:10	1	1	5.0.14.0	1	2	practice	go	682	1500	0	0	-44	0	581	1	bar_left	-3	1	bar_right	-3	1	blankbottomrectangle	-3
081720	17:06:10	1	1	5.0.14.0	1	6	practice	go	682	1500	0	0	-44	0	314	1	bar_left	-1	1	bar_right	-1	1	blankbottomrectangle	-1
081720	17:07:19	1	1	5.0.14.0	1	2	practice	go	686	0	0	0	-44	0	365	1	bar_left	-1	1	bar_right	-1	1	blankbottomrectangle	-1
081720	17:07:19	1	1	5.0.14.0	1	6	practice	go	686	0	0	0	-44	0	848	1	bar_left	0	1	bar_right	0	1	blankbottomrectangle	0
081720	17:42:49	1	1	5.0.14.0	1	2	practice	go	432	0	0	0	-44	0	648	1	bar_left	0	1	bar_right	0	1	blankbottomrectangle	0
081720	17:42:49	1	1	5.0.14.0	1	6	practice	go	432	0	0	0	-44	0	431	1	bar_left	0	1	bar_right	0	1	blankbottomrectangle	0
081820	09:29:07	1	1	5.0.14.0	1	2	practice	go	770	0	0	0	-44	0	647	1	bar_left	-1	1	bar_right	-1	1	blankbottomrectangle	-1
081820	09:29:07	1	1	5.0.14.0	1	6	practice	go	770	0	0	0	-44	0	11438	1	bar_left	-3	1	bar_right	-3	1	blankbottomrectangle	-3
081820	09:30:25	1	1	5.0.14.0	1	2	practice	go	529	0	0	0	-44	0	664	1	bar_left	-3	1	bar_right	-3	1	blankbottomrectangle	-3
081820	09:30:25	1	1	5.0.14.0	1	6	practice	go	529	0	0	0	-44	0	781	1	bar_left	-1	1	bar_right	-1	1	blankbottomrectangle	-1
081820	09:30:42	1	1	5.0.14.0	1	2	practice	go	862	0	0	0	-44	0	265	1	bar_left	-3	1	bar_right	-3	1	blankbottomrectangle	-3
081820	09:30:42	1	1	5.0.14.0	1	6	practice	go	862	0	0	0	-44	0	1901	1	bar_left	-2	1	bar_right	-2	1	blankbottomrectangle	-2
081820	09:33:43	1	1	5.0.14.0	1	2	practice	go	691	0	0	0	-44	0	2080	1	bar_left	-2	1	bar_right	-2	1	blankbottomrectangle	-2
081820	09:33:43	1	1	5.0.14.0	1	6	practice	go	691	0	0	0	-44	0	4250	1	bar_left	-3	1	bar_right	-3	1	blankbottomrectangle	-3
081820	09:37:29	1	1	5.0.14.0	1	2	practice	go	665	0	0	0	-44	0	1164	1	bar_left	-3	1	bar_right	-3	1	blankbottomrectangle	-3
081820	09:37:29	1	1	5.0.14.0	1	6	practice	go	665	0	0	0	-44	0	6401	1	bar_left	-2	1	bar_right	-2	1	blankbottomrectangle	-2
081820	09:39:27	1	1	5.0.14.0	1	2	practice	go	582	0	0	0	-44	0	3933	1	bar_left	-3	1	bar_right	-3	1	blankbottomrectangle	-3
081820	09:39:27	1	1	5.0.14.0	1	6	practice	go	582	0	0	0	-44	0	3367	1	bar_left	-2	1	bar_right	-2	1	blankbottomrectangle	-2
081820	09:45:10	1	1	5.0.14.0	1	2	practice	go	675	0	0	0	-44	0	2831	1	bar_left	0	1	bar_right	0	1	blankbottomrectangle	0
081820	10:01:36	1	1	5.0.14.0	1	2	practice	go	458	0	0	0	-44	0	684	1	bar_left	-3	1	bar_right	-3	1	blankbottomrectangle	-3
081820	10:02:32	1	1	5.0.14.0	1	2	practice	go	463	0	0	0	-44	0	3715	1	bar_left	-1	1	bar_right	-1	1	blankbottomrectangle	-1
081820	10:03:00	1	1	5.0.14.0	1	4	practice	go	840	0	0	0	-44	0	623	1	bar_left	-4	1	bar_right	-4	1	blankbottomrectangle	-4
081820	10:29:29	1	1	5.0.14.0	1	2	practice	go	655	0	0	0	-44	0	616	1	bar_left	-2	1	bar_right	-2	1	blankbottomrectangle	-2
081820	10:29:29	1	1	5.0.14.0	1	6	practice	go	655	0	0	0	-44	0	682	1	bar_left	0	1	bar_right	0	1	blankbottomrectangle	0
081820	10:49:15	1	1	5.0.14.0	1	2	practice	go	880	0	0	0	-44	0	581	1	bar_left	-4	1	bar_right	-4	1	blankbottomrectangle	-4
081820	10:49:15	1	1	5.0.14.0	1	6	practice	go	880	0	0	0	-44	0	3349	1	bar_left	-3	1	bar_right	-3	1	blankbottomrectangle	-3
081820	10:50:25	1	1	5.0.14.0	1	1	practice	init	0	0	0	0	53	0	7088	1	blankbottomrectangle	29	0	0	0	0	0	0
081820	10:50:25	1	1	5.0.14.0	1	2	practice	go	793	0	0	0	-44	0	2014	1	bar_left	-2	1	bar_right	-2	1	blankbottomrectangle	-2
081820	10:50:25	1	1	5.0.14.0	1	3	practice	init	0	0	0	0	53	0	4266	1	blankbottomrectangle	-3	0	0	0	0	0	0
081820	10:50:25	1	1	5.0.14.0	1	5	practice	init	0	0	0	0	53	0	5668	1	blankbottomrectangle	-3	0	0	0	0	0	0
081820	10:50:25	1	1	5.0.14.0	1	6	practice	go	793	0	0	0	-44	0	648	1	bar_left	-2	1	bar_right	-2	1	blankbottomrectangle	-2
081820	10:54:10	1	1	5.0.14.0	1	1	practice	init	0	0	0	0	53	0	8750	1	blankbottomrectangle	29	0	0	0	0	0	0
081820	10:54:10	1	1	5.0.14.0	1	2	practice	go	561	0	0	0	-44	0	1349	1	bar_left	-3	1	bar_right	-3	1	blankbottomrectangle	-3
081820	10:54:10	1	1	5.0.14.0	1	3	practice	init	0	0	0	0	53	0	20644	1	blankbottomrectangle	-3	0	0	0	0	0	0
081820	10:54:10	1	1	5.0.14.0	1	5	practice	init	0	0	0	0	44	0	5183	1	blankbottomrectangle	-4	0	0	0	0	0	0
081820	10:54:10	1	1	5.0.14.0	1	6	practice	go	561	0	0	0	-44	0	782	1	bar_left	-3	1	bar_right	-3	1	blankbottomrectangle	-3
081820	10:58:17	1	1	5.0.14.0	1	2	practice	go	819	0	0	0	-44	0	11856	1	bar_left	-3	1	bar_right	-3	1	blankbottomrectangle	-3
081820	10:58:17	1	1	5.0.14.0	1	6	practice	go	819	0	0	0	-44	0	1065	1	bar_left	-3	1	bar_right	-3	1	blankbottomrectangle	-3
081820	11:09:06	1	1	5.0.14.0	1	2	practice	go	768	0	0	0	-44	0	81	1	bar_left	-2	1	bar_right	-2	1	blankbottomrectangle	-2
081820	11:09:06	1	1	5.0.14.0	1	6	practice	go	768	0	0	0	-44	0	315	1	bar_left	-2	1	bar_right	-2	1	blankbottomrectangle	-2
081820	11:11:49	1	1	5.0.14.0	1	2	practice	go	739	0	0	0	-44	0	949	1	bar_left	-2	1	bar_right	-2	1	blankbottomrectangle	-2
081820	11:11:49	1	1	5.0.14.0	1	6	practice	go	739	0	0	0	-44	0	314	1	bar_left	0	1	bar_right	0	1	blankbottomrectangle	0
081820	11:13:17	1	1	5.0.14.0	1	2	practice	go	720	0	0	0	-44	0	481	1	bar_left	-2	1	bar_right	-2	1	blankbottomrectangle	-2
081820	11:13:17	1	1	5.0.14.0	1	6	practice	go	720	0	0	0	-44	0	4535	1	bar_left	-1	1	bar_right	-1	1	blankbottomrectangle	-1
081820	11:23:42	1	1	5.0.14.0	1	2	practice	go	880	0	0	0	-44	0	531	1	bar_left	-2	1	bar_right	-2	1	blankbottomrectangle	-2
081820	11:23:42	1	1	5.0.14.0	1	6	practice	go	880	0	0	0	-44	0	514	1	bar_left	-2	1	bar_right	-2	1	blankbottomrectangle	-2
081820	11:25:09	1	1	5.0.14.0	1	2	practice	go	776	0	0	0	-44	0	1080	1	bar_left	-2	1	bar_right	-2	1	blankbottomrectangle	-2
081820	11:25:09	1	1	5.0.14.0	1	6	practice	go	776	0	0	0	-44	0	1065	1	bar_left	1	1	bar_right	1	1	blankbottomrectangle	1
081820	11:25:42	1	1	5.0.14.0	1	2	practice	go	608	0	0	0	-44	0	1281	1	bar_left	-3	1	bar_right	-3	1	blankbottomrectangle	-3
081820	11:25:42	1	1	5.0.14.0	1	6	practice	go	608	0	0	0	-44	0	380	1	bar_left	-1	1	bar_right	-1	1	blankbottomrectangle	-1
081820	11:26:04	1	1	5.0.14.0	1	2	practice	go	786	0	0	0	-44	0	1115	1	bar_left	-3	1	bar_right	-3	1	blankbottomrectangle	-3
081820	11:26:04	1	1	5.0.14.0	1	6	practice	go	786	0	0	0	-44	0	6752	1	bar_left	-1	1	bar_right	-1	1	blankbottomrectangle	-1
081820	11:34:52	1	1	5.0.14.0	1	2	practice	go	692	0	0	0	-44	0	482	1	bar_left	-4	1	bar_right	-4	1	blankbottomrectangle	-4
081820	11:34:52	1	1	5.0.14.0	1	6	practice	go	692	0	0	0	-44	0	98	1	bar_left	-3	1	bar_right	-3	1	blankbottomrectangle	-3
081820	11:35:52	1	1	5.0.14.0	1	2	practice	go	698	0	0	0	-44	0	1147	1	target_start	-3	1	bar_left	-3	1	bar_right	-3	1	blankbottomrectangle	-3
081820	11:35:52	1	1	5.0.14.0	1	6	practice	go	698	0	0	0	-44	0	1014	1	target_start	-2	1	bar_left	-2	1	bar_right	-2	1	blankbottomrectangle	-2
081820	11:36:12	1	1	5.0.14.0	1	2	practice	go	572	0	0	0	-44	0	1615	1	target_start	-3	1	bar_left	-3	1	bar_right	-3	1	blankbottomrectangle	-3
081820	11:36:12	1	1	5.0.14.0	1	6	practice	go	572	0	0	0	-44	0	7469	1	target_start	0	1	bar_left	0	1	bar_right	0	1	blankbottomrectangle	0
081820	11:36:32	1	1	5.0.14.0	1	2	practice	go	471	0	0	0	-44	0	1532	1	target_start	-3	1	bar_left	-3	1	bar_right	-3	1	blankbottomrectangle	-3
081820	11:36:32	1	1	5.0.14.0	1	6	practice	go	471	0	0	0	-44	0	864	1	target_start	-3	1	bar_left	-3	1	bar_right	-3	1	blankbottomrectangle	-3
081820	11:39:01	1	1	5.0.14.0	1	2	practice	go	841	0	0	0	-44	0	1497	1	target_start	-2	1	bar_left	-2	1	bar_right	-2	1	blankbottomrectangle	-2
081820	11:39:01	1	1	5.0.14.0	1	6	practice	go	841	0	0	0	-44	0	781	1	target_start	-2	1	bar_left	-2	1	bar_right	-2	1	blankbottomrectangle	-2
081820	11:40:21	1	1	5.0.14.0	1	2	practice	go	819	0	0	0	-44	0	964	1	target_start	-2	1	bar_left	-2	1	bar_right	-2	1	blankbottomrectangle	-2	1	blankbar_left	-2
081820	11:40:21	1	1	5.0.14.0	1	6	practice	go	819	0	0	0	-44	0	665	1	target_start	-2	1	bar_left	-2	1	bar_right	-2	1	blankbottomrectangle	-2	1	blankbar_left	-2
081820	11:41:13	1	1	5.0.14.0	1	2	practice	go	655	0	0	0	-44	0	915	1	target_start	-2	1	blankbar_left	-2	1	bar_left	-2	1	bar_right	-2	1	blankbottomrectangle	-2	0	0	0
081820	11:41:13	1	1	5.0.14.0	1	6	practice	go	655	0	0	0	-44	0	938	1	target_start	-1	1	blankbar_left	-1	1	bar_left	-1	1	bar_right	-1	1	blankbottomrectangle	-1	0	0	0
081820	11:42:29	1	1	5.0.14.0	1	2	practice	go	426	0	0	0	-44	0	947	1	target_start	-1	1	blankbar_left	-1	1	blankbar_right	-1	1	bar_left	-1	1	bar_right	-1	1	blankbottomrectangle	-1	0	0	0
081820	11:42:29	1	1	5.0.14.0	1	6	practice	go	426	0	0	0	-44	0	897	1	target_start	-3	1	blankbar_left	-3	1	blankbar_right	-3	1	bar_left	-3	1	bar_right	-3	1	blankbottomrectangle	-3	0	0	0
081820	11:42:42	1	1	5.0.14.0	1	2	practice	go	452	0	0	0	-44	0	6100	1	target_start	-2	1	blankbar_left	-2	1	blankbar_right	-2	1	bar_left	-2	1	bar_right	-2	1	blankbottomrectangle	-2	0	0	0
081820	11:42:42	1	1	5.0.14.0	1	6	practice	go	452	0	0	0	-44	0	881	1	target_start	-1	1	blankbar_left	-1	1	blankbar_right	-1	1	bar_left	-1	1	bar_right	-1	1	blankbottomrectangle	-1	0	0	0
081820	11:50:07	1	1	5.0.14.0	1	2	practice	go	433	0	0	0	-44	0	2382	1	target_start	0	1	blankbar_left	0	1	blankbar_right	0	1	bar_left	0	1	bar_right	0	1	blankbottomrectangle	0
081820	11:50:07	1	1	5.0.14.0	1	6	practice	go	433	0	0	0	-44	0	4600	1	target_start	-2	1	blankbar_left	-2	1	blankbar_right	-2	1	bar_left	-2	1	bar_right	-2	1	blankbottomrectangle	-2
081820	11:50:32	1	1	5.0.14.0	1	2	practice	go	881	0	0	0	-44	0	2330	1	target_start	-2	1	blankbar_left	-2	1	blankbar_right	-2	1	bar_left	-2	1	bar_right	-2	0	0	0
081820	11:50:32	1	1	5.0.14.0	1	6	practice	go	881	0	0	0	-44	0	1129	1	target_start	-3	1	blankbar_left	-3	1	blankbar_right	-3	1	bar_left	-3	1	bar_right	-3	0	0	0
081820	11:51:58	1	1	5.0.14.0	1	2	practice	go	676	0	0	0	-44	0	881	1	target_start	-2	1	blankbar_left	-2	1	blankbar_right	-2	1	bar_left	-2	1	bar_right	-2	1	blankbottomrectangle	-2
081820	11:51:58	1	1	5.0.14.0	1	6	practice	go	676	0	0	0	-44	0	5866	1	target_start	-2	1	blankbar_left	-2	1	blankbar_right	-2	1	bar_left	-2	1	bar_right	-2	1	blankbottomrectangle	-2
081820	11:52:59	1	1	5.0.14.0	1	2	practice	go	744	0	0	0	-53	0	337	1	target_start	0	1	blankbar_left	0	1	blankbar_right	0	1	bar_left	0	1	bar_right	0	1	blankbottomrectangle	0
081820	11:52:59	1	1	5.0.14.0	1	6	practice	go	744	0	0	0	-44	0	498	1	target_start	-2	1	blankbar_left	-2	1	blankbar_right	-2	1	bar_left	-2	1	bar_right	-2	1	blankbottomrectangle	-2
081820	12:51:29	1	1	5.0.14.0	1	2	practice	go	759	0	0	0	-44	1	698	1	target_start	-2	1	blankbar_left	-2	1	blankbar_right	-2	1	bar_left	-2	1	bar_right	-2	1	blankbottomrectangle	-2
081820	12:51:29	1	1	5.0.14.0	1	6	practice	go	759	0	0	0	-44	1	883	1	target_start	-2	1	blankbar_left	-2	1	blankbar_right	-2	1	bar_left	-2	1	bar_right	-2	1	blankbottomrectangle	-2
081820	12:54:55	1	1	5.0.14.0	1	2	practice	go	732	0	0	0	-44	1	815	1	target_start	0	1	blankbar_left	0	1	blankbar_right	0	1	bar_left	0	1	bar_right	0	1	blankbottomrectangle	0
081820	12:54:55	1	1	5.0.14.0	1	6	practice	go	732	0	0	0	-53	1	848	1	target_start	-2	1	blankbar_left	-2	1	blankbar_right	-2	1	bar_left	-2	1	bar_right	-2	1	blankbottomrectangle	-2
081820	14:12:15	1	1	5.0.14.0	1	2	practice	go	615	0	0	0	Ctrl+'Q'	1	10740	1	target_start	0	1	blankbar_left	0	1	blankbar_right	0	1	bar_left	0	1	bar_right	0	1	blankbottomrectangle	0
081820	14:12:41	1	1	5.0.14.0	1	2	practice	go	891	0	0	0	-53	1	916	1	target_start	-2	1	blankbar_left	-2	1	blankbar_right	-2	1	bar_left	-2	1	bar_right	-2	1	blankbottomrectangle	-2
081820	14:12:41	1	1	5.0.14.0	1	6	practice	go	891	0	0	0	-44	1	281	1	target_start	0	1	blankbar_left	0	1	blankbar_right	0	1	bar_left	0	1	bar_right	0	1	blankbottomrectangle	0
081820	15:00:03	1	1	5.0.14.0	1	2	practice	go	786	0	0	0	-53	0	882	1	target_start	-3	1	blankbar_left	-3	1	blankbar_right	-3	1	bar_left	-3	1	bar_right	-3	1	blankbottomrectangle	-3
081820	15:00:03	1	1	5.0.14.0	1	3	practice	go_left_continuing	0	0	0	0	-44	0	882	1	target_start	0	1	blankbar_left	0	1	blankbar_right	0	1	bar_left_continuing	0	1	bar_right_stopped	0	1	blankbottomrectangle	0
081820	15:00:03	1	1	5.0.14.0	1	7	practice	go	786	0	0	0	-53	0	348	1	target_start	-1	1	blankbar_left	-1	1	blankbar_right	-1	1	bar_left	-1	1	bar_right	-1	1	blankbottomrectangle	-1
081820	15:00:03	1	1	5.0.14.0	1	8	practice	go_left_continuing	0	0	0	0	-44	1	698	1	target_start	-2	1	blankbar_left	-2	1	blankbar_right	-2	1	bar_left_continuing	-2	1	bar_right_stopped	-2	1	blankbottomrectangle	-2
081820	15:00:22	1	1	5.0.14.0	1	2	practice	go	760	0	0	0	-53	0	814	1	target_start	-2	1	blankbar_left	-2	1	blankbar_right	-2	1	bar_left	-2	1	bar_right	-2	1	blankbottomrectangle	-2
081820	15:00:22	1	1	5.0.14.0	1	3	practice	go_left_continuing	0	0	0	0	-44	0	1264	1	target_start	-2	1	blankbar_left	-2	1	blankbar_right	-2	1	bar_left_continuing	-2	1	bar_right_stopped	-2	1	blankbottomrectangle	-2
081820	15:00:22	1	1	5.0.14.0	1	7	practice	go	760	0	0	0	-44	0	248	1	target_start	-1	1	blankbar_left	-1	1	blankbar_right	-1	1	bar_left	-1	1	bar_right	-1	1	blankbottomrectangle	-1
081820	15:00:22	1	1	5.0.14.0	1	8	practice	go_right_continuing	0	0	0	0	-53	1	82	1	target_start	-1	1	blankbar_left	-1	1	blankbar_right	-1	1	bar_left_stopped	-1	1	bar_right_continuing	-1	1	blankbottomrectangle	-1
081820	15:08:20	1	1	5.0.14.0	1	2	practice	go	850	0	0	0	-53	0	348	1	target_start	-1	1	blankbar_left	-1	1	blankbar_right	-1	1	bar_left	-1	1	bar_right	-1	1	blankbottomrectangle	-1
081820	15:08:20	1	1	5.0.14.0	1	3	practice	go_left_continuing	0	0	0	0	-44	1	631	1	target_start	0	1	blankbar_left	0	1	blankbar_right	0	1	bar_left_continuing	0	1	bar_right_stopped	0	1	blankbottomrectangle	0
081820	15:08:20	1	1	5.0.14.0	1	7	practice	go	850	0	0	0	-44	0	364	1	target_start	-2	1	blankbar_left	-2	1	blankbar_right	-2	1	bar_left	-2	1	bar_right	-2	1	blankbottomrectangle	-2
081820	15:08:20	1	1	5.0.14.0	1	8	practice	go_right_continuing	0	0	0	0	-53	1	3851	1	target_start	-2	1	blankbar_left	-2	1	blankbar_right	-2	1	bar_left_stopped	-2	1	bar_right_continuing	-2	1	blankbottomrectangle	-2
081820	15:11:31	1	1	5.0.14.0	1	2	practice	go	613	0	0	0	-53	0	348	1	target_start	0	1	blankbar_left	0	1	blankbar_right	0	1	bar_left	0	1	bar_right	0	1	blankbottomrectangle	0
081820	15:11:31	1	1	5.0.14.0	1	3	practice	go_left_continuing	0	0	0	0	-44	1	731	1	target_start	-3	1	blankbar_left	-3	1	blankbar_right	-3	1	bar_left_continuing	-3	1	bar_right_stopped	-3	1	blankbottomrectangle	-3
081820	15:11:31	1	1	5.0.14.0	1	7	practice	go	613	0	0	0	-44	0	398	1	target_start	-2	1	blankbar_left	-2	1	blankbar_right	-2	1	bar_left	-2	1	bar_right	-2	1	blankbottomrectangle	-2
081820	15:11:31	1	1	5.0.14.0	1	8	practice	go_right_continuing	0	0	0	0	-53	1	1614	1	target_start	-3	1	blankbar_left	-3	1	blankbar_right	-3	1	bar_left_stopped	-3	1	bar_right_continuing	-3	1	blankbottomrectangle	-3
081820	15:11:47	1	1	5.0.14.0	1	2	practice	go	703	0	0	0	-44	0	299	1	target_start	-3	1	blankbar_left	-3	1	blankbar_right	-3	1	bar_left	-3	1	bar_right	-3	1	blankbottomrectangle	-3
081820	15:11:47	1	1	5.0.14.0	1	3	practice	go_right_continuing	0	0	0	0	-53	1	1115	1	target_start	-2	1	blankbar_left	-2	1	blankbar_right	-2	1	bar_left_stopped	-2	1	bar_right_continuing	-2	1	blankbottomrectangle	-2
081820	15:11:47	1	1	5.0.14.0	1	7	practice	go	703	0	0	0	-53	0	382	1	target_start	-2	1	blankbar_left	-2	1	blankbar_right	-2	1	bar_left	-2	1	bar_right	-2	1	blankbottomrectangle	-2
081820	15:11:47	1	1	5.0.14.0	1	8	practice	go_left_continuing	0	0	0	0	-44	1	831	1	target_start	0	1	blankbar_left	0	1	blankbar_right	0	1	bar_left_continuing	0	1	bar_right_stopped	0	1	blankbottomrectangle	0
081820	15:12:00	1	1	5.0.14.0	1	2	practice	go	704	0	0	0	-44	0	398	1	target_start	-2	1	blankbar_left	-2	1	blankbar_right	-2	1	bar_left	-2	1	bar_right	-2	1	blankbottomrectangle	-2
081820	15:12:00	1	1	5.0.14.0	1	3	practice	go_right_continuing	0	0	0	0	-53	1	798	1	target_start	-3	1	blankbar_left	-3	1	blankbar_right	-3	1	bar_left_stopped	-3	1	bar_right_continuing	-3	1	blankbottomrectangle	-3
081820	15:12:00	1	1	5.0.14.0	1	7	practice	go	704	0	0	0	-53	0	364	1	target_start	-3	1	blankbar_left	-3	1	blankbar_right	-3	1	bar_left	-3	1	bar_right	-3	1	blankbottomrectangle	-3
081820	15:12:00	1	1	5.0.14.0	1	8	practice	go_left_continuing	0	0	0	0	-44	1	749	1	target_start	-3	1	blankbar_left	-3	1	blankbar_right	-3	1	bar_left_continuing	-3	1	bar_right_stopped	-3	1	blankbottomrectangle	-3
081820	15:50:37	1	1	5.0.14.0	1	2	practice	go	828	0	0	0	-44	0	397	1	target_start	0	1	blankbar_left	0	1	blankbar_right	0	1	bar_left	0	1	bar_right	0	1	blankbottomrectangle	0
081820	15:50:37	1	1	5.0.14.0	1	3	practice	go_right_continuing	0	0	0	0	-53	1	131	1	target_start	-2	1	blankbar_left	-2	1	blankbar_right	-2	1	bar_left_stopped	-2	1	bar_right_continuing	-2	1	blankbottomrectangle	-2
081820	15:50:37	1	1	5.0.14.0	1	7	practice	go	828	0	0	0	-44	0	398	1	target_start	-3	1	blankbar_left	-3	1	blankbar_right	-3	1	bar_left	-3	1	bar_right	-3	1	blankbottomrectangle	-3
081820	15:50:37	1	1	5.0.14.0	1	8	practice	go_right_continuing	0	0	0	0	-53	1	601	1	target_start	-4	1	blankbar_left	-4	1	blankbar_right	-4	1	bar_left_stopped	-4	1	bar_right_continuing	-4	1	blankbottomrectangle	-4
081820	15:50:55	1	1	5.0.14.0	1	2	practice	go	665	0	0	0	-44	0	998	1	target_start	-3	1	blankbar_left	-3	1	blankbar_right	-3	1	bar_left	-3	1	bar_right	-3	1	blankbottomrectangle	-3
081820	15:50:55	1	1	5.0.14.0	1	3	practice	go_right_continuing	0	0	0	0	-53	1	14	1	target_start	-1	1	blankbar_left	-1	1	blankbar_right	-1	1	bar_left_stopped	-1	1	bar_right_continuing	-1	1	blankbottomrectangle	-1
081820	15:50:55	1	1	5.0.14.0	1	7	practice	go	665	0	0	0	-53	0	430	1	target_start	-1	1	blankbar_left	-1	1	blankbar_right	-1	1	bar_left	-1	1	bar_right	-1	1	blankbottomrectangle	-1
081820	15:50:55	1	1	5.0.14.0	1	8	practice	go_left_continuing	0	0	0	0	-44	1	564	1	target_start	0	1	blankbar_left	0	1	blankbar_right	0	1	bar_left_continuing	0	1	bar_right_stopped	0	1	blankbottomrectangle	0
081820	15:51:10	1	1	5.0.14.0	1	2	practice	go	858	0	0	0	-53	0	363	1	target_start	-1	1	blankbar_left	-1	1	blankbar_right	-1	1	bar_left	-1	1	bar_right	-1	1	blankbottomrectangle	-1
081820	15:51:10	1	1	5.0.14.0	1	3	practice	go_left_continuing	0	0	0	0	-44	1	648	1	target_start	0	1	blankbar_left	0	1	blankbar_right	0	1	bar_left_continuing	0	1	bar_right_stopped	0	1	blankbottomrectangle	0
081820	15:51:10	1	1	5.0.14.0	1	7	practice	go	858	0	0	0	-44	0	313	1	target_start	-3	1	blankbar_left	-3	1	blankbar_right	-3	1	bar_left	-3	1	bar_right	-3	1	blankbottomrectangle	-3
081820	15:51:10	1	1	5.0.14.0	1	8	practice	go_right_continuing	0	0	0	0	-53	1	732	1	target_start	-3	1	blankbar_left	-3	1	blankbar_right	-3	1	bar_left_stopped	-3	1	bar_right_continuing	-3	1	blankbottomrectangle	-3
081820	15:53:12	1	1	5.0.14.0	1	2	practice	go	600	0	0	0	-44	0	831	1	target_start	0	1	blankbar_left	0	1	blankbar_right	0	1	bar_left	0	1	bar_right	0	1	blankbottomrectangle	0
081820	15:53:12	1	1	5.0.14.0	1	3	practice	go_right_continuing	0	0	0	0	-53	0	4133	1	target_start	-2	1	blankbar_left	-2	1	blankbar_right	-2	1	bar_left_stopped	-2	1	bar_right_continuing	-2	1	blankbottomrectangle	-2
081820	15:53:12	1	1	5.0.14.0	1	7	practice	go	600	0	0	0	-53	0	547	1	target_start	-2	1	blankbar_left	-2	1	blankbar_right	-2	1	bar_left	-2	1	bar_right	-2	1	blankbottomrectangle	-2
081820	15:53:12	1	1	5.0.14.0	1	8	practice	go_left_continuing	0	0	0	0	-44	1	97	1	target_start	0	1	blankbar_left	0	1	blankbar_right	0	1	bar_left_continuing	0	1	bar_right_stopped	0	1	blankbottomrectangle	0
081820	15:53:27	1	1	5.0.14.0	1	2	practice	go	620	0	0	0	-44	0	831	1	target_start	-2	1	blankbar_left	-2	1	blankbar_right	-2	1	bar_left	-2	1	bar_right	-2	1	blankbottomrectangle	-2
081820	15:53:27	1	1	5.0.14.0	1	3	practice	go_right_continuing	0	0	0	0	-53	1	13	1	target_start	-1	1	blankbar_left	-1	1	blankbar_right	-1	1	bar_left_stopped	-1	1	bar_right_continuing	-1	1	blankbottomrectangle	-1
081820	15:53:27	1	1	5.0.14.0	1	7	practice	go	620	0	0	0	-44	0	849	1	target_start	-3	1	blankbar_left	-3	1	blankbar_right	-3	1	bar_left	-3	1	bar_right	-3	1	blankbottomrectangle	-3
081820	15:53:27	1	1	5.0.14.0	1	8	practice	go_right_continuing	0	0	0	0	-53	0	5016	1	target_start	-3	1	blankbar_left	-3	1	blankbar_right	-3	1	bar_left_stopped	-3	1	bar_right_continuing	-3	1	blankbottomrectangle	-3
081820	15:54:54	1	1	5.0.14.0	1	2	practice	go	558	0	0	0	-53	0	481	1	target_start	-2	1	blankbar_left	-2	1	blankbar_right	-2	1	bar_left	-2	1	bar_right	-2	1	blankbottomrectangle	-2
081820	15:54:54	1	1	5.0.14.0	1	3	practice	go_left_continuing	0	0	0	0	-44	1	314	1	target_start	-3	1	blankbar_left	-3	1	blankbar_right	-3	1	bar_left_continuing	-3	1	bar_right_stopped	-3	1	blankbottomrectangle	-3
081820	15:54:54	1	1	5.0.14.0	1	7	practice	go	558	0	0	0	-53	0	331	1	target_start	-3	1	blankbar_left	-3	1	blankbar_right	-3	1	bar_left	-3	1	bar_right	-3	1	blankbottomrectangle	-3
081820	15:54:54	1	1	5.0.14.0	1	8	practice	go_left_continuing	0	0	0	0	-44	1	381	1	target_start	-3	1	blankbar_left	-3	1	blankbar_right	-3	1	bar_left_continuing	-3	1	bar_right_stopped	-3	1	blankbottomrectangle	-3
081820	16:08:29	1	1	5.0.14.0	1	2	practice	go	410	0	0	0	-53	0	698	1	target_start	-1	1	blankbar_left	-1	1	blankbar_right	-1	1	bar_left	-1	1	bar_right	-1	1	blankbottomrectangle	-1	0	0	0
081820	16:08:29	1	1	5.0.14.0	1	3	practice	go_left_continuing	0	0	0	0	-44	1	164	1	target_start	0	1	blankbar_left	0	1	blankbar_right	0	1	bar_left_continuing	0	1	bar_right_stopped	0	1	blankbottomrectangle	0	0	0	0
081820	16:08:29	1	1	5.0.14.0	1	7	practice	go	410	0	0	0	-53	0	548	1	target_start	-2	1	blankbar_left	-2	1	blankbar_right	-2	1	bar_left	-2	1	bar_right	-2	1	blankbottomrectangle	-2	0	0	0
081820	16:08:29	1	1	5.0.14.0	1	8	practice	go_left_continuing	0	0	0	0	-44	1	381	1	target_start	-1	1	blankbar_left	-1	1	blankbar_right	-1	1	bar_left_continuing	-1	1	bar_right_stopped	-1	1	blankbottomrectangle	-1	0	0	0
081820	16:10:07	1	1	5.0.14.0	1	2	practice	go	755	0	0	0	-53	0	764	1	target_start	-1	1	blankbar_left	-1	1	blankbar_right	-1	1	bar_left	-1	1	bar_right	-1	1	blankbottomrectangle	-1	0	0	0
081820	16:10:07	1	1	5.0.14.0	1	3	practice	go_left_continuing	0	0	0	0	-44	1	264	1	target_start	-3	1	blankbar_left	-3	1	blankbar_right	-3	1	bar_left_continuing	-3	1	bar_right_stopped	-3	1	blankbottomrectangle	-3	0	0	0
081820	16:10:07	1	1	5.0.14.0	1	7	practice	go	755	0	0	0	-44	0	399	1	target_start	-3	1	blankbar_left	-3	1	blankbar_right	-3	1	bar_left	-3	1	bar_right	-3	1	blankbottomrectangle	-3	0	0	0
081820	16:10:07	1	1	5.0.14.0	1	8	practice	go_right_continuing	0	0	0	0	-53	0	648	1	target_start	0	1	blankbar_left	0	1	blankbar_right	0	1	bar_left_stopped	0	1	bar_right_continuing	0	1	blankbottomrectangle	0	0	0	0
081820	16:12:31	1	1	5.0.14.0	1	2	practice	go	610	0	0	0	-53	0	386	1	target_start	-1	1	blankbar_left	-1	1	blankbar_right	-1	1	bar_left	-1	1	bar_right	-1	1	blankbottomrectangle	-1	0	0	0
081820	16:12:31	1	1	5.0.14.0	1	3	practice	go_left_continuing	0	0	0	0	-44	0	457	1	target_start	-2	1	blankbar_left	-2	1	blankbar_right	-2	1	bar_left_continuing	-2	1	bar_right_stopped	-2	1	blankbottomrectangle	-2	0	0	0
081820	16:12:31	1	1	5.0.14.0	1	8	practice	go	610	0	0	0	-53	0	597	1	target_start	-3	1	blankbar_left	-3	1	blankbar_right	-3	1	bar_left	-3	1	bar_right	-3	1	blankbottomrectangle	-3	0	0	0
081820	16:12:31	1	1	5.0.14.0	1	9	practice	go_left_continuing	0	0	0	0	-44	0	398	1	target_start	-3	1	blankbar_left	-3	1	blankbar_right	-3	1	bar_left_continuing	-3	1	bar_right_stopped	-3	1	blankbottomrectangle	-3	0	0	0
081820	16:17:43	1	1	5.0.14.0	1	2	practice	go	686	0	0	0	-53	0	850	1	target_start	-1	1	blankbar_left	-1	1	blankbar_right	-1	1	bar_left	-1	1	bar_right	-1	1	blankbottomrectangle	-1	0	0	0
081820	16:17:43	1	1	5.0.14.0	1	3	practice	go_left_continuing	0	0	0	0	-44	0	2498	1	target_start	0	1	blankbar_left	0	1	blankbar_right	0	1	bar_left_continuing	0	1	bar_right_stopped	0	1	blankbottomrectangle	0	0	0	0
081820	16:17:43	1	1	5.0.14.0	1	8	practice	go	686	0	0	0	-44	0	848	1	target_start	-3	1	blankbar_left	-3	1	blankbar_right	-3	1	bar_left	-3	1	bar_right	-3	1	blankbottomrectangle	-3	0	0	0
081820	16:17:43	1	1	5.0.14.0	1	9	practice	go_right_continuing	0	0	0	0	-53	0	798	1	target_start	-1	1	blankbar_left	-1	1	blankbar_right	-1	1	bar_left_stopped	-1	1	bar_right_continuing	-1	1	blankbottomrectangle	-1	0	0	0
081820	16:19:37	1	1	5.0.14.0	1	2	practice	go	631	0	0	0	-53	0	698	1	target_start	0	1	blankbar_left	0	1	blankbar_right	0	1	bar_left	0	1	bar_right	0	1	blankbottomrectangle	0	0	0	0
081820	16:19:37	1	1	5.0.14.0	1	3	practice	go_left_continuing	0	0	0	0	-44	0	247	1	target_start	-1	1	blankbar_left	-1	1	blankbar_right	-1	1	bar_left_continuing	-1	1	bar_right_stopped	-1	1	blankbottomrectangle	-1	0	0	0
081820	16:19:37	1	1	5.0.14.0	1	8	practice	go	631	0	0	0	-53	0	564	1	target_start	-3	1	blankbar_left	-3	1	blankbar_right	-3	1	bar_left	-3	1	bar_right	-3	1	blankbottomrectangle	-3	0	0	0
081820	16:19:37	1	1	5.0.14.0	1	9	practice	go_left_continuing	0	0	0	0	-44	0	331	1	target_start	-3	1	blankbar_left	-3	1	blankbar_right	-3	1	bar_left_continuing	-3	1	bar_right_stopped	-3	1	blankbottomrectangle	-3	0	0	0
081820	16:20:12	1	1	5.0.14.0	1	2	practice	go	657	0	0	0	-53	0	832	1	target_start	-2	1	blankbar_left	-2	1	blankbar_right	-2	1	bar_left	-2	1	bar_right	-2	1	blankbottomrectangle	-2	0	0	0
081820	16:20:12	1	1	5.0.14.0	1	3	practice	go_left_continuing	0	0	0	0	-44	0	51	1	target_start	-2	1	blankbar_left	-2	1	blankbar_right	-2	1	bar_left_continuing	-2	1	bar_right_stopped	-2	1	blankbottomrectangle	-2	0	0	0
081820	16:20:12	1	1	5.0.14.0	1	8	practice	go	657	0	0	0	-53	0	699	1	target_start	0	1	blankbar_left	0	1	blankbar_right	0	1	bar_left	0	1	bar_right	0	1	blankbottomrectangle	0	0	0	0
081820	16:20:12	1	1	5.0.14.0	1	9	practice	go_left_continuing	0	0	0	0	-44	0	30	1	target_start	0	1	blankbar_left	0	1	blankbar_right	0	1	bar_left_continuing	0	1	bar_right_stopped	0	1	blankbottomrectangle	0	0	0	0
081820	16:22:54	1	1	5.0.14.0	1	2	practice	go	607	0	0	0	-53	0	899	1	target_start	-3	1	blankbar_left	-3	1	blankbar_right	-3	1	bar_left	-3	1	bar_right	-3	1	blankbottomrectangle	-3	0	0	0
081820	16:22:54	1	1	5.0.14.0	1	3	practice	go_left_continuing	0	0	0	0	-44	0	982	1	target_start	-3	1	blankbar_left	-3	1	blankbar_right	-3	1	bar_left_continuing	-3	1	bar_right_stopped	-3	1	blankbottomrectangle	-3	0	0	0
081820	16:22:54	1	1	5.0.14.0	1	8	practice	go	607	0	0	0	-53	0	514	1	target_start	-2	1	blankbar_left	-2	1	blankbar_right	-2	1	bar_left	-2	1	bar_right	-2	1	blankbottomrectangle	-2	0	0	0
081820	16:22:54	1	1	5.0.14.0	1	9	practice	go_left_continuing	0	0	0	0	-44	0	365	1	target_start	-1	1	blankbar_left	-1	1	blankbar_right	-1	1	bar_left_continuing	-1	1	bar_right_stopped	-1	1	blankbottomrectangle	-1	0	0	0
081820	16:23:37	1	1	5.0.14.0	1	2	practice	go	623	0	0	0	-53	0	549	1	target_start	0	1	blankbar_left	0	1	blankbar_right	0	1	bar_left	0	1	bar_right	0	1	blankbottomrectangle	0	0	0	0
081820	16:23:37	1	1	5.0.14.0	1	3	practice	go_left_continuing	0	0	0	0	-44	0	314	1	target_start	-1	1	blankbar_left	-1	1	blankbar_right	-1	1	bar_left_continuing	-1	1	bar_right_stopped	-1	1	blankbottomrectangle	-1	0	0	0
081820	16:23:37	1	1	5.0.14.0	1	8	practice	go	623	0	0	0	-53	0	331	1	target_start	-3	1	blankbar_left	-3	1	blankbar_right	-3	1	bar_left	-3	1	bar_right	-3	1	blankbottomrectangle	-3	0	0	0
081820	16:23:37	1	1	5.0.14.0	1	9	practice	go_left_continuing	0	0	0	0	-44	0	497	1	target_start	-2	1	blankbar_left	-2	1	blankbar_right	-2	1	bar_left_continuing	-2	1	bar_right_stopped	-2	1	blankbottomrectangle	-2	0	0	0
081820	16:26:23	1	1	5.0.14.0	1	2	practice	go	690	0	0	0	-53	0	849	1	target_start	-1	1	blankbar_left	-1	1	blankbar_right	-1	1	bar_left	-1	1	bar_right	-1	1	blankbottomrectangle	-1	1		-1
081820	16:26:23	1	1	5.0.14.0	1	3	practice	go_left_continuing	0	0	0	0	-44	0	30	1	target_start	0	1	blankbar_left	0	1	blankbar_right	0	1	bar_left_continuing	0	1	bar_right_stopped	0	1	blankbottomrectangle	0	1		0
081820	16:26:23	1	1	5.0.14.0	1	8	practice	go	690	0	0	0	-44	0	796	1	target_start	-3	1	blankbar_left	-3	1	blankbar_right	-3	1	bar_left	-3	1	bar_right	-3	1	blankbottomrectangle	-3	1		-3
081820	16:26:23	1	1	5.0.14.0	1	9	practice	go_right_continuing	0	0	0	0	-53	0	965	1	target_start	0	1	blankbar_left	0	1	blankbar_right	0	1	bar_left_stopped	0	1	bar_right_continuing	0	1	blankbottomrectangle	0	1		0
081820	16:26:54	1	1	5.0.14.0	1	2	practice	go	488	0	0	0	-53	0	815	1	target_start	0	1	blankbar_left	0	1	blankbar_right	0	1	bar_left	0	1	bar_right	0	1	blankbottomrectangle	0	1		0
081820	16:26:54	1	1	5.0.14.0	1	3	practice	go_left_continuing	0	0	0	0	-44	0	82	1	target_start	-1	1	blankbar_left	-1	1	blankbar_right	-1	1	bar_left_continuing	-1	1	bar_right_stopped	-1	1	blankbottomrectangle	-1	1		-1
081820	16:26:54	1	1	5.0.14.0	1	8	practice	go	488	0	0	0	-53	0	715	1	target_start	0	1	blankbar_left	0	1	blankbar_right	0	1	bar_left	0	1	bar_right	0	1	blankbottomrectangle	0	1		0
081820	16:26:54	1	1	5.0.14.0	1	9	practice	go_left_continuing	0	0	0	0	-44	0	148	1	target_start	-3	1	blankbar_left	-3	1	blankbar_right	-3	1	bar_left_continuing	-3	1	bar_right_stopped	-3	1	blankbottomrectangle	-3	1		-3
081820	16:32:29	1	1	5.0.14.0	1	2	practice	go	481	0	0	0	-53	0	498	1	target_start	-3	1	blankbar_left	-3	1	blankbar_right	-3	1	bar_left	-3	1	bar_right	-3	1	blankbottomrectangle	-3	1		-3
081820	16:32:29	1	1	5.0.14.0	1	3	practice	go_left_continuing	0	0	0	0	-44	0	281	1	target_start	-1	1	blankbar_left	-1	1	blankbar_right	-1	1	bar_left_continuing	-1	1	bar_right_stopped	-1	1	blankbottomrectangle	-1	1		-1
081820	16:32:29	1	1	5.0.14.0	1	8	practice	go	481	0	0	0	-53	0	799	1	target_start	-2	1	blankbar_left	-2	1	blankbar_right	-2	1	bar_left	-2	1	bar_right	-2	1	blankbottomrectangle	-2	1		-2
081820	16:32:29	1	1	5.0.14.0	1	9	practice	go_left_continuing	0	0	0	0	-44	1	17	1	target_start	-1	1	blankbar_left	-1	1	blankbar_right	-1	1	bar_left_continuing	-1	1	bar_right_stopped	-1	1	blankbottomrectangle	-1	1		-1
081820	16:33:09	1	1	5.0.14.0	1	2	practice	go	459	0	0	0	-53	0	799	1	target_start	-1	1	blankbar_left	-1	1	blankbar_right	-1	1	bar_left	-1	1	bar_right	-1	1	blankbottomrectangle	-1	1		-1
081820	16:33:09	1	1	5.0.14.0	1	3	practice	go_left_continuing	0	0	0	0	-44	0	815	1	target_start	-3	1	blankbar_left	-3	1	blankbar_right	-3	1	bar_left_continuing	-3	1	bar_right_stopped	-3	1	blankbottomrectangle	-3	1		-3
081820	16:33:09	1	1	5.0.14.0	1	8	practice	go	459	0	0	0	-53	0	781	1	target_start	-1	1	blankbar_left	-1	1	blankbar_right	-1	1	bar_left	-1	1	bar_right	-1	1	blankbottomrectangle	-1	1		-1
081820	16:33:09	1	1	5.0.14.0	1	9	practice	go_left_continuing	0	0	0	0	-44	0	1080	1	target_start	-2	1	blankbar_left	-2	1	blankbar_right	-2	1	bar_left_continuing	-2	1	bar_right_stopped	-2	1	blankbottomrectangle	-2	1		-2
081820	16:33:26	1	1	5.0.14.0	1	2	practice	go	601	0	0	0	-53	0	431	1	target_start	-1	1	blankbar_left	-1	1	blankbar_right	-1	1	bar_left	-1	1	bar_right	-1	1	blankbottomrectangle	-1	1		-1
081820	16:33:26	1	1	5.0.14.0	1	3	practice	go_left_continuing	0	0	0	0	-44	0	214	1	target_start	0	1	blankbar_left	0	1	blankbar_right	0	1	bar_left_continuing	0	1	bar_right_stopped	0	1	blankbottomrectangle	0	1		0
081820	16:33:26	1	1	5.0.14.0	1	8	practice	go	601	0	0	0	-44	0	882	1	target_start	-2	1	blankbar_left	-2	1	blankbar_right	-2	1	bar_left	-2	1	bar_right	-2	1	blankbottomrectangle	-2	1		-2
081820	16:33:26	1	1	5.0.14.0	1	9	practice	go_right_continuing	0	0	0	0	-53	0	748	1	target_start	0	1	blankbar_left	0	1	blankbar_right	0	1	bar_left_stopped	0	1	bar_right_continuing	0	1	blankbottomrectangle	0	1		0
081820	16:35:40	1	1	5.0.14.0	1	2	practice	go	409	0	0	0	-53	0	647	1	target_start	-1	1	blankbar_left	-1	1	blankbar_right	-1	1	bar_left	-1	1	bar_right	-1	1	blankbottomrectangle	-1	1		-1
081820	16:35:40	1	1	5.0.14.0	1	3	practice	go_left_continuing	0	0	0	0	-44	0	13	1	target_start	-2	1	blankbar_left	-2	1	blankbar_right	-2	1	bar_left_continuing	-2	1	bar_right_stopped	-2	1	blankbottomrectangle	-2	1		-2
081820	16:35:40	1	1	5.0.14.0	1	8	practice	go	409	0	0	0	-44	0	863	1	target_start	-4	1	blankbar_left	-4	1	blankbar_right	-4	1	bar_left	-4	1	bar_right	-4	1	blankbottomrectangle	-4	1		-4
081820	16:35:40	1	1	5.0.14.0	1	9	practice	go_right_continuing	0	0	0	0	-53	0	594	1	target_start	-3	1	blankbar_left	-3	1	blankbar_right	-3	1	bar_left_stopped	-3	1	bar_right_continuing	-3	1	blankbottomrectangle	-3	1		-3
081820	16:36:06	1	1	5.0.14.0	1	2	practice	go	620	0	0	0	-53	0	797	1	target_start	-2	1	blankbar_left	-2	1	blankbar_right	-2	1	bar_left	-2	1	bar_right	-2	1	blankbottomrectangle	-2	1		-2
081820	16:36:06	1	1	5.0.14.0	1	3	practice	go_left_continuing	0	0	0	0	-44	0	515	1	target_start	0	1	blankbar_left	0	1	blankbar_right	0	1	bar_left_continuing	0	1	bar_right_stopped	0	1	blankbottomrectangle	0	1		0
081820	16:36:06	1	1	5.0.14.0	1	8	practice	go	620	0	0	0	-44	0	765	1	target_start	-3	1	blankbar_left	-3	1	blankbar_right	-3	1	bar_left	-3	1	bar_right	-3	1	blankbottomrectangle	-3	1		-3
081820	16:36:06	1	1	5.0.14.0	1	9	practice	go_right_continuing	0	0	0	0	-53	0	14	1	target_start	-1	1	blankbar_left	-1	1	blankbar_right	-1	1	bar_left_stopped	-1	1	bar_right_continuing	-1	1	blankbottomrectangle	-1	1		-1
081820	16:36:44	1	1	5.0.14.0	1	2	practice	go	728	0	0	0	-53	0	630	1	target_start	0	1	blankbar_left	0	1	blankbar_right	0	1	bar_left	0	1	bar_right	0	1	blankbottomrectangle	0	1		0
081820	16:36:44	1	1	5.0.14.0	1	3	practice	go_left_continuing	0	0	0	0	-44	0	183	1	target_start	-2	1	blankbar_left	-2	1	blankbar_right	-2	1	bar_left_continuing	-2	1	bar_right_stopped	-2	1	blankbottomrectangle	-2	1		-2
081820	16:36:44	1	1	5.0.14.0	1	8	practice	go	728	0	0	0	-44	0	831	1	target_start	0	1	blankbar_left	0	1	blankbar_right	0	1	bar_left	0	1	bar_right	0	1	blankbottomrectangle	0	1		0
081820	16:36:44	1	1	5.0.14.0	1	9	practice	go_right_continuing	0	0	0	0	-53	0	15	1	target_start	-1	1	blankbar_left	-1	1	blankbar_right	-1	1	bar_left_stopped	-1	1	bar_right_continuing	-1	1	blankbottomrectangle	-1	1		-1
081820	16:37:04	1	1	5.0.14.0	1	2	practice	go	525	0	0	0	-53	0	831	1	target_start	-2	1	blankbar_left	-2	1	blankbar_right	-2	1	bar_left	-2	1	bar_right	-2	1	blankbottomrectangle	-2	1		-2
081820	16:37:04	1	1	5.0.14.0	1	3	practice	go_left_continuing	0	0	0	0	-44	0	14	1	target_start	-1	1	blankbar_left	-1	1	blankbar_right	-1	1	bar_left_continuing	-1	1	bar_right_stopped	-1	1	blankbottomrectangle	-1	1		-1
081820	16:37:04	1	1	5.0.14.0	1	8	practice	go	525	0	0	0	-53	0	847	1	target_start	-2	1	blankbar_left	-2	1	blankbar_right	-2	1	bar_left	-2	1	bar_right	-2	1	blankbottomrectangle	-2	1		-2
081820	16:37:04	1	1	5.0.14.0	1	9	practice	go_left_continuing	0	0	0	0	-44	0	697	1	target_start	0	1	blankbar_left	0	1	blankbar_right	0	1	bar_left_continuing	0	1	bar_right_stopped	0	1	blankbottomrectangle	0	1		0
081820	16:38:15	1	1	5.0.14.0	1	2	practice	go	654	0	0	0	-53	0	864	1	target_start	-1	1	blankbar_left	-1	1	blankbar_right	-1	1	bar_left	-1	1	bar_right	-1	1	blankbottomrectangle	-1	1		-1
081820	16:38:15	1	1	5.0.14.0	1	3	practice	go_left_continuing	0	0	0	0	-44	0	714	1	target_start	-2	1	blankbar_left	-2	1	blankbar_right	-2	1	bar_left_continuing	-2	1	bar_right_stopped	-2	1	blankbottomrectangle	-2	1		-2
081820	16:38:15	1	1	5.0.14.0	1	8	practice	go	654	0	0	0	-53	0	864	1	target_start	-1	1	blankbar_left	-1	1	blankbar_right	-1	1	bar_left	-1	1	bar_right	-1	1	blankbottomrectangle	-1	1		-1
081820	16:38:15	1	1	5.0.14.0	1	9	practice	go_left_continuing	0	0	0	0	-44	0	1647	1	target_start	-2	1	blankbar_left	-2	1	blankbar_right	-2	1	bar_left_continuing	-2	1	bar_right_stopped	-2	1	blankbottomrectangle	-2	1		-2
081820	16:38:34	1	1	5.0.14.0	1	2	practice	go	657	0	0	0	-44	0	798	1	target_start	-1	1	blankbar_left	-1	1	blankbar_right	-1	1	bar_left	-1	1	bar_right	-1	1	blankbottomrectangle	-1	1		-1
081820	16:38:34	1	1	5.0.14.0	1	3	practice	go_right_continuing	0	0	0	0	-53	0	130	1	target_start	-3	1	blankbar_left	-3	1	blankbar_right	-3	1	bar_left_stopped	-3	1	bar_right_continuing	-3	1	blankbottomrectangle	-3	1		-3
081820	16:38:34	1	1	5.0.14.0	1	8	practice	go	657	0	0	0	-44	0	698	1	target_start	-2	1	blankbar_left	-2	1	blankbar_right	-2	1	bar_left	-2	1	bar_right	-2	1	blankbottomrectangle	-2	1		-2
081820	16:38:34	1	1	5.0.14.0	1	9	practice	go_right_continuing	0	0	0	0	-53	0	281	1	target_start	-1	1	blankbar_left	-1	1	blankbar_right	-1	1	bar_left_stopped	-1	1	bar_right_continuing	-1	1	blankbottomrectangle	-1	1		-1
081820	16:38:48	1	1	5.0.14.0	1	2	practice	go	457	0	0	0	-44	0	868	1	target_start	0	1	blankbar_left	0	1	blankbar_right	0	1	bar_left	0	1	bar_right	0	1	blankbottomrectangle	0	1		0
081820	16:38:48	1	1	5.0.14.0	1	3	practice	go_right_continuing	0	0	0	0	-53	0	17	1	target_start	-1	1	blankbar_left	-1	1	blankbar_right	-1	1	bar_left_stopped	-1	1	bar_right_continuing	-1	1	blankbottomrectangle	-1	1		-1
081820	16:38:48	1	1	5.0.14.0	1	8	practice	go	457	0	0	0	-44	0	832	1	target_start	-2	1	blankbar_left	-2	1	blankbar_right	-2	1	bar_left	-2	1	bar_right	-2	1	blankbottomrectangle	-2	1		-2
081820	16:38:48	1	1	5.0.14.0	1	9	practice	go_right_continuing	0	0	0	0	-53	0	16	1	target_start	-1	1	blankbar_left	-1	1	blankbar_right	-1	1	bar_left_stopped	-1	1	bar_right_continuing	-1	1	blankbottomrectangle	-1	1		-1
081820	16:47:35	1	1	5.0.14.0	1	2	practice	go	453	0	0	0	-53	0	647	1	target_start	-3	1	blankbar_left	-3	1	blankbar_right	-3	1	bar_left	-3	1	bar_right	-3	1	blankbottomrectangle	-3	1		-3
081820	16:47:35	1	1	5.0.14.0	1	3	practice	go_left_continuing	0	0	0	0	-44	0	264	1	target_start	0	1	blankbar_left	0	1	blankbar_right	0	1	bar_left_continuing	0	1	bar_right_stopped	0	1	blankbottomrectangle	0	1		0
081820	16:47:35	1	1	5.0.14.0	1	8	practice	go	453	0	0	0	-53	0	2046	1	target_start	0	1	blankbar_left	0	1	blankbar_right	0	1	bar_left	0	1	bar_right	0	1	blankbottomrectangle	0	1		0
081820	16:47:35	1	1	5.0.14.0	1	9	practice	go_left_continuing	0	0	0	0	-44	0	15	1	target_start	-2	1	blankbar_left	-2	1	blankbar_right	-2	1	bar_left_continuing	-2	1	bar_right_stopped	-2	1	blankbottomrectangle	-2	1		-2
081820	16:48:21	1	1	5.0.14.0	1	2	practice	go	494	0	0	0	-53	0	698	1	target_start	0	1	blankbar_left	0	1	blankbar_right	0	1	bar_left	0	1	bar_right	0	1	blankbottomrectangle	0	1		0
081820	16:48:21	1	1	5.0.14.0	1	3	practice	go_left_continuing	0	0	0	0	-44	0	181	1	target_start	-1	1	blankbar_left	-1	1	blankbar_right	-1	1	bar_left_continuing	-1	1	bar_right_stopped	-1	1	blankbottomrectangle	-1	1		-1
081820	16:48:21	1	1	5.0.14.0	1	8	practice	go	494	0	0	0	-53	0	814	1	target_start	0	1	blankbar_left	0	1	blankbar_right	0	1	bar_left	0	1	bar_right	0	1	blankbottomrectangle	0	1		0
081820	16:48:21	1	1	5.0.14.0	1	9	practice	go_left_continuing	0	0	0	0	-44	1	13	1	target_start	-1	1	blankbar_left	-1	1	blankbar_right	-1	1	bar_left_continuing	-1	1	bar_right_stopped	-1	1	blankbottomrectangle	-1	1		-1
081820	16:51:54	1	1	5.0.14.0	1	2	practice	go	760	0	0	0	-53	0	634	1	target_start	-3	1	blankbar_left	-3	1	blankbar_right	-3	1	bar_left	-3	1	bar_right	-3	1	blankbottomrectangle	-3	1		-3
081820	16:51:54	1	1	5.0.14.0	1	3	practice	go_left_continuing	0	0	0	0	-44	0	249	1	target_start	-2	1	blankbar_left	-2	1	blankbar_right	-2	1	bar_left_continuing	-2	1	bar_right_stopped	-2	1	blankbottomrectangle	-2	1		-2
081820	16:51:54	1	1	5.0.14.0	1	8	practice	go	760	0	0	0	-44	0	1547	1	target_start	0	1	blankbar_left	0	1	blankbar_right	0	1	bar_left	0	1	bar_right	0	1	blankbottomrectangle	0	1		0
081820	16:51:54	1	1	5.0.14.0	1	9	practice	go_right_continuing	0	0	0	0	Ctrl+'Q'	1	8085	1	target_start	-2	1	blankbar_left	-2	1	blankbar_right	-2	1	bar_left_stopped	-2	1	bar_right_continuing	-2	1	blankbottomrectangle	-2	1		-2
081820	17:00:03	1	1	5.0.14.0	1	2	practice	go	722	0	0	0	-53	0	864	1	target_start	0	1	blankbar_left	0	1	blankbar_right	0	1	bar_left	0	1	bar_right	0	1	blankbottomrectangle	0	1		0
081820	17:00:03	1	1	5.0.14.0	1	3	practice	go_left_continuing	0	0	0	0	Ctrl+'Q'	1	6350	1	target_start	0	1	blankbar_left	0	1	blankbar_right	0	1	bar_left_continuing	0	1	bar_right_stopped	0	1	blankbottomrectangle	0	1		0
081820	17:00:17	1	1	5.0.14.0	1	2	practice	go	476	0	0	0	-53	0	518	1	target_start	-1	1	blankbar_left	-1	1	blankbar_right	-1	1	bar_left	-1	1	bar_right	-1	1	blankbottomrectangle	-1	1		-1
081820	17:00:17	1	1	5.0.14.0	1	3	practice	go_left_continuing	0	0	0	0	-44	0	347	1	target_start	0	1	blankbar_left	0	1	blankbar_right	0	1	bar_left_continuing	0	1	bar_right_stopped	0	1	blankbottomrectangle	0	1		0
081820	17:00:17	1	1	5.0.14.0	1	8	practice	go	476	0	0	0	-53	0	831	1	target_start	-1	1	blankbar_left	-1	1	blankbar_right	-1	1	bar_left	-1	1	bar_right	-1	1	blankbottomrectangle	-1	1		-1
081820	17:00:17	1	1	5.0.14.0	1	9	practice	go_left_continuing	0	0	0	0	-44	0	14	1	target_start	-3	1	blankbar_left	-3	1	blankbar_right	-3	1	bar_left_continuing	-3	1	bar_right_stopped	-3	1	blankbottomrectangle	-3	1		-3
081820	17:00:31	1	1	5.0.14.0	1	2	practice	go	644	0	0	0	-44	0	881	1	target_start	-2	1	blankbar_left	-2	1	blankbar_right	-2	1	bar_left	-2	1	bar_right	-2	1	blankbottomrectangle	-2	1		-2
081820	17:00:31	1	1	5.0.14.0	1	3	practice	go_right_continuing	0	0	0	0	Ctrl+'Q'	1	5400	1	target_start	-3	1	blankbar_left	-3	1	blankbar_right	-3	1	bar_left_stopped	-3	1	bar_right_continuing	-3	1	blankbottomrectangle	-3	1		-3
081820	17:00:43	1	1	5.0.14.0	1	2	practice	go	833	0	0	0	-53	0	864	1	target_start	-2	1	blankbar_left	-2	1	blankbar_right	-2	1	bar_left	-2	1	bar_right	-2	1	blankbottomrectangle	-2	1		-2
081820	17:00:43	1	1	5.0.14.0	1	3	practice	go_left_continuing	0	0	0	0	-44	0	14	1	target_start	-1	1	blankbar_left	-1	1	blankbar_right	-1	1	bar_left_continuing	-1	1	bar_right_stopped	-1	1	blankbottomrectangle	-1	1		-1
081820	17:00:43	1	1	5.0.14.0	1	8	practice	go	833	0	0	0	-53	0	749	1	target_start	-2	1	blankbar_left	-2	1	blankbar_right	-2	1	bar_left	-2	1	bar_right	-2	1	blankbottomrectangle	-2	1		-2
081820	17:00:43	1	1	5.0.14.0	1	9	practice	go_left_continuing	0	0	0	0	-44	0	130	1	target_start	-2	1	blankbar_left	-2	1	blankbar_right	-2	1	bar_left_continuing	-2	1	bar_right_stopped	-2	1	blankbottomrectangle	-2	1		-2
081820	17:00:59	1	1	5.0.14.0	1	2	practice	go	587	0	0	0	-53	0	769	1	target_start	-2	1	blankbar_left	-2	1	blankbar_right	-2	1	bar_left	-2	1	bar_right	-2	1	blankbottomrectangle	-2	1		-2
081820	17:00:59	1	1	5.0.14.0	1	3	practice	go_left_continuing	0	0	0	0	-44	0	198	1	target_start	-1	1	blankbar_left	-1	1	blankbar_right	-1	1	bar_left_continuing	-1	1	bar_right_stopped	-1	1	blankbottomrectangle	-1	1		-1
081820	17:00:59	1	1	5.0.14.0	1	8	practice	go	587	0	0	0	-53	0	832	1	target_start	-2	1	blankbar_left	-2	1	blankbar_right	-2	1	bar_left	-2	1	bar_right	-2	1	blankbottomrectangle	-2	1		-2
081820	17:00:59	1	1	5.0.14.0	1	9	practice	go_left_continuing	0	0	0	0	Ctrl+'Q'	1	5549	1	target_start	-3	1	blankbar_left	-3	1	blankbar_right	-3	1	bar_left_continuing	-3	1	bar_right_stopped	-3	1	blankbottomrectangle	-3	1		-3
081820	17:53:55	1	1	5.0.14.0	1	2	practice	go	521	0	0	0	-53	0	681	1	target_start	-1	1	blankbar_left	-1	1	blankbar_right	-1	1	bar_left	-1	1	bar_right	-1	1	blankbottomrectangle	-1	1		-1
081820	17:53:55	1	1	5.0.14.0	1	3	practice	go_left_continuing	0	0	0	0	-44	0	148	1	target_start	-3	1	blankbar_left	-3	1	blankbar_right	-3	1	bar_left_continuing	-3	1	bar_right_stopped	-3	1	blankbottomrectangle	-3	1		-3
081820	17:53:55	1	1	5.0.14.0	1	8	practice	go	521	0	0	0	-53	0	885	1	target_start	0	1	blankbar_left	0	1	blankbar_right	0	1	bar_left	0	1	bar_right	0	1	blankbottomrectangle	0	1		0
081820	17:53:55	1	1	5.0.14.0	1	9	practice	go_left_continuing	0	0	0	0	-44	0	13	1	target_start	-1	1	blankbar_left	-1	1	blankbar_right	-1	1	bar_left_continuing	-1	1	bar_right_stopped	-1	1	blankbottomrectangle	-1	1		-1
081820	17:55:14	1	1	5.0.14.0	1	2	practice	go	413	0	0	0	-53	0	847	1	target_start	0	1	blankbar_left	0	1	blankbar_right	0	1	bar_left	0	1	bar_right	0	1	blankbottomrectangle	0	1		0
081820	17:55:14	1	1	5.0.14.0	1	3	practice	go_left_continuing	0	0	0	0	Ctrl+'Q'	1	6100	1	target_start	0	1	blankbar_left	0	1	blankbar_right	0	1	bar_left_continuing	0	1	bar_right_stopped	0	1	blankbottomrectangle	0	1		0
081920	10:38:06	1	1	5.0.14.0	1	2	practice	go	850	0	0	0	-53	0	3515	1	target_start	-5	1	blankbar_left	-5	1	blankbar_right	-5	1	bar_left	11	1	bar_right	11	1	blankbottomrectangle	30	1		30
081920	10:38:06	1	1	5.0.14.0	1	3	practice	go_left_continuing	0	0	0	0	Ctrl+'Q'	1	12673	1	target_start	-3	1	blankbar_left	-3	1	blankbar_right	-3	1	bar_left_continuing	-3	1	bar_right_stopped	-3	1	blankbottomrectangle	-3	1		-3
081920	10:38:42	1	1	5.0.14.0	1	2	practice	go	468	0	0	0	-44	0	798	1	target_start	-4	1	blankbar_left	-4	1	blankbar_right	-4	1	bar_left	12	1	bar_right	12	1	blankbottomrectangle	31	1		31
081920	10:38:42	1	1	5.0.14.0	1	3	practice	go_right_continuing	0	0	0	0	Ctrl+'Q'	1	4498	1	target_start	-1	1	blankbar_left	-1	1	blankbar_right	-1	1	bar_left_stopped	-1	1	bar_right_continuing	-1	1	blankbottomrectangle	-1	1		-1
081920	10:41:17	1	1	5.0.14.0	1	2	practice	go	519	0	0	0	-53	0	816	1	target_start	-2	1	blankbar_left	-2	1	blankbar_right	-2	1	bar_left	-2	1	bar_right	-2	1	blankbottomrectangle	-2	1		-2
081920	10:41:17	1	1	5.0.14.0	1	3	practice	go_left_continuing	0	0	0	0	-44	0	131	1	target_start	-2	1	blankbar_left	-2	1	blankbar_right	-2	1	bar_left_continuing	-2	1	bar_right_stopped	-2	1	blankbottomrectangle	-2	1		-2
081920	10:41:17	1	1	5.0.14.0	1	8	practice	go	519	0	0	0	-44	0	1015	1	target_start	-2	1	blankbar_left	-2	1	blankbar_right	-2	1	bar_left	-2	1	bar_right	-2	1	blankbottomrectangle	-2	1		-2
081920	10:41:17	1	1	5.0.14.0	1	9	practice	go_right_continuing	0	0	0	0	Ctrl+'Q'	1	9203	1	target_start	0	1	blankbar_left	0	1	blankbar_right	0	1	bar_left_stopped	0	1	bar_right_continuing	0	1	blankbottomrectangle	0	1		0
081920	10:48:51	1	1	5.0.14.0	1	2	practice	go	401	0	0	0	-53	0	1601	1	target_start	-3	1	blankbar_left	-3	1	blankbar_right	-3	1	bar_left	-3	1	bar_right	-3	1	blankbottomrectangle	-3	1		-3
081920	10:48:51	1	1	5.0.14.0	1	6	practice	go	401	0	0	0	-53	0	348	1	target_start	0	1	blankbar_left	0	1	blankbar_right	0	1	bar_left	0	1	bar_right	0	1	blankbottomrectangle	0	1		0
